IESNA:LM-63-2002
[TEST] 1
[TESTLAB] Zlab
[TESTDATE] 2014-01-22
[ISSUEDATE] 2014-01-22 18:04:12
[NEARFIELD] 
[LAMPPOSITION] 0,0
[OTHER] EVERFINE GO-R5000_V2 SYSTEM
[MANUFAC] LUNA
[LUMINAIRE] 60497 DLR 18W-4200K
[LAMP] 60497 DLR 18W-4200K
[OTHER] 
[OTHER] Gamma(deg)    Fz(lm)      Ft(lm)     %Lum    %Lamp
[OTHER]   0- 10        58.80       58.80     5.40     5.40
[OTHER]  10- 20       165.12      223.92    20.55    20.55
[OTHER]  20- 30       227.64      451.56    41.44    41.44
[OTHER]  30- 40       226.37      677.93    62.21    62.21
[OTHER]  40- 50       177.58      855.51    78.51    78.51
[OTHER]  50- 60       113.50      969.01    88.93    88.93
[OTHER]  60- 70        65.56     1034.57    94.94    94.94
[OTHER]  70- 80        40.37     1074.93    98.65    98.65
[OTHER]  80- 90        14.76     1089.69   100.00   100.00
[OTHER]  90-100         0.00     1089.69   100.00   100.00
[OTHER] 100-110         0.00     1089.69   100.00   100.00
[OTHER] 110-120         0.00     1089.69   100.00   100.00
[OTHER] 120-130         0.00     1089.69   100.00   100.00
[OTHER] 130-140         0.00     1089.69   100.00   100.00
[OTHER] 140-150         0.00     1089.69   100.00   100.00
[OTHER] 150-160         0.00     1089.69   100.00   100.00
[OTHER] 160-170         0.00     1089.69   100.00   100.00
[OTHER] 170-180         0.00     1089.69   100.00   100.00
[OTHER] 
TILT=NONE
1 1090 1 91 25 1 2 -0.225 0.225 -0.012
1.000 1 18
0.0    1.0    2.0    3.0    4.0    5.0    6.0    7.0    8.0    9.0    
 10.0   11.0   12.0   13.0   14.0   15.0   16.0   17.0   18.0   19.0   
 20.0   21.0   22.0   23.0   24.0   25.0   26.0   27.0   28.0   29.0   
 30.0   31.0   32.0   33.0   34.0   35.0   36.0   37.0   38.0   39.0   
 40.0   41.0   42.0   43.0   44.0   45.0   46.0   47.0   48.0   49.0   
 50.0   51.0   52.0   53.0   54.0   55.0   56.0   57.0   58.0   59.0   
 60.0   61.0   62.0   63.0   64.0   65.0   66.0   67.0   68.0   69.0   
 70.0   71.0   72.0   73.0   74.0   75.0   76.0   77.0   78.0   79.0   
 80.0   81.0   82.0   83.0   84.0   85.0   86.0   87.0   88.0   89.0   
 90.0   
0.0    15.0   30.0   45.0   60.0   75.0   90.0   105.0  120.0  135.0  
 150.0  165.0  180.0  195.0  210.0  225.0  240.0  255.0  270.0  285.0  
 300.0  315.0  330.0  345.0  360.0  
627.70   625.21   625.60   626.18   621.09   616.74   617.64   619.12   615.59   611.97   
 612.53   613.35   607.63   599.78   597.23   595.01   590.25   583.45   581.12   575.33   
 567.04   561.09   557.04   549.14   540.83   535.89   527.46   516.40   508.72   499.19   
 483.60   472.54   461.21   444.97   432.59   419.58   402.54   386.30   368.59   351.69   
 336.17   317.64   300.28   283.47   267.90   252.84   239.20   225.98   214.18   202.75   
 193.08   183.15   174.01   164.55   156.21   148.92   141.32   133.45   126.15   119.39   
 112.72   106.38   100.25   94.22    88.61    83.31    78.40    73.74    69.30    64.96    
 60.59    56.46    52.53    48.86    45.31    42.02    38.70    35.39    32.26    28.97    
 25.99    22.84    19.85    16.95    14.14    11.42    8.61     5.64     2.74     0.09     
 0.00     
628.06   624.04   624.28   624.51   623.28   617.34   617.42   619.95   617.29   609.27   
 607.54   608.74   606.79   598.58   594.61   594.29   589.72   581.60   575.15   571.09   
 565.47   557.33   550.42   547.19   537.30   527.40   520.28   510.70   496.84   486.72   
 477.82   464.21   451.43   439.76   424.59   410.22   397.31   380.97   365.52   350.80   
 334.47   320.89   305.01   291.12   276.88   261.13   248.49   233.41   220.06   205.67   
 193.95   182.33   171.09   160.33   151.20   142.32   134.03   125.78   118.01   110.86   
 103.90   97.29    91.16    85.66    80.19    74.96    70.00    65.51    61.13    57.07    
 53.38    50.04    47.09    44.37    41.71    39.30    36.74    34.28    31.87    29.24    
 26.69    23.85    20.98    18.18    14.87    11.87    8.92     5.44     2.80     0.00     
 0.00     
626.47   622.88   621.73   621.70   619.91   615.24   614.42   619.25   618.39   610.87   
 605.16   603.08   606.44   604.53   594.52   587.49   585.00   583.27   575.82   566.91   
 559.03   554.38   546.60   535.01   526.35   517.86   505.79   492.37   482.26   472.71   
 457.49   442.28   428.83   414.88   398.60   383.88   370.41   355.13   341.49   329.98   
 314.97   301.66   290.37   276.62   264.10   251.70   239.77   228.22   215.31   203.36   
 191.60   180.27   167.87   156.82   145.81   135.57   124.91   115.39   105.96   97.52    
 89.65    82.79    76.48    70.83    65.40    60.90    56.84    53.38    50.52    47.98    
 45.83    44.10    42.53    40.95    39.62    38.30    36.81    35.31    33.49    31.60    
 29.36    27.28    24.61    21.99    18.76    15.25    11.45    7.66     3.74     0.08     
 0.00     
628.14   624.72   621.15   620.48   620.08   616.95   613.28   612.12   610.63   609.81   
 609.73   606.54   599.55   594.73   591.99   588.39   585.56   577.97   567.83   560.74   
 556.46   550.37   538.32   523.39   509.61   499.19   488.66   472.30   455.52   441.37   
 430.47   416.56   399.83   384.60   372.74   360.51   345.43   332.25   322.14   311.06   
 295.49   283.70   273.25   261.90   248.08   236.97   225.98   213.12   202.57   191.93   
 179.44   169.55   158.50   147.72   137.62   128.48   119.72   111.81   103.95   96.51    
 89.56    83.48    77.70    72.61    67.91    63.94    60.28    57.13    54.51    52.17    
 50.10    48.25    46.50    44.85    43.09    41.33    39.40    37.34    34.99    32.68    
 30.17    27.67    25.18    22.34    19.23    15.82    12.05    7.90     3.57     0.00     
 0.00     
627.74   623.36   618.73   617.53   617.19   615.87   615.12   615.09   610.19   605.66   
 602.28   601.87   602.78   599.02   592.41   585.20   576.88   567.63   559.12   549.54   
 541.42   532.84   518.68   505.78   490.90   474.80   461.10   448.47   435.95   422.76   
 407.06   392.24   379.44   368.04   356.72   345.02   328.77   313.44   301.93   290.68   
 279.69   264.38   251.15   237.76   225.50   213.75   202.05   190.52   180.20   169.90   
 159.31   149.85   140.99   132.20   123.64   116.18   109.55   103.42   97.61    92.16    
 87.33    82.60    78.48    74.58    71.04    67.76    64.81    61.93    59.36    56.87    
 54.45    51.81    49.40    46.88    44.38    42.04    39.61    37.18    34.67    32.18    
 29.50    27.07    24.45    21.61    18.59    15.35    11.82    7.79     3.71     0.00     
 0.00     
626.94   625.40   620.52   616.65   615.62   614.22   612.97   612.70   610.94   609.49   
 607.85   604.90   601.70   599.39   592.40   582.64   573.24   562.51   553.50   543.85   
 532.53   519.50   507.75   495.25   479.37   465.00   452.23   438.06   424.27   411.25   
 397.79   383.60   368.88   357.15   345.66   332.44   319.36   306.22   293.51   280.65   
 267.23   252.34   238.63   224.52   212.52   199.82   189.20   178.93   169.41   159.82   
 149.75   140.45   132.01   123.97   116.42   108.95   102.05   95.73    89.78    84.32    
 79.60    75.10    71.09    67.17    63.60    60.44    57.59    55.03    52.64    50.45    
 48.12    45.83    43.91    41.83    39.97    38.04    36.03    33.95    31.83    29.42    
 26.91    24.30    21.55    18.78    15.73    12.56    9.20     5.61     2.51     0.00     
 0.00     
628.48   628.10   624.21   620.55   619.41   619.18   616.87   614.14   610.85   608.75   
 607.47   605.70   601.28   594.40   587.76   580.17   571.79   563.53   553.96   542.72   
 529.82   515.45   502.02   489.09   475.45   459.38   443.85   429.34   416.53   403.83   
 390.67   377.25   364.97   353.48   340.83   326.76   313.44   299.93   286.63   273.40   
 260.39   248.16   235.90   222.55   211.14   200.10   188.73   177.61   167.28   156.32   
 146.95   137.40   128.24   119.87   111.84   103.75   96.68    90.35    84.30    78.78    
 74.01    69.39    65.81    62.57    59.34    56.38    53.72    51.16    48.92    46.81    
 45.16    43.56    42.13    40.78    39.37    37.77    36.09    34.16    31.80    29.27    
 26.67    23.84    20.82    17.78    14.74    11.64    8.30     5.10     2.09     0.00     
 0.00     
628.56   628.97   626.03   623.08   620.52   620.10   619.43   615.52   611.12   607.07   
 603.55   598.05   593.67   589.29   584.72   579.13   572.74   565.71   555.88   543.13   
 530.71   517.75   503.79   488.24   471.90   457.15   443.25   428.88   416.07   404.96   
 391.86   379.01   366.76   353.30   338.79   325.78   312.09   299.39   286.23   274.14   
 262.88   250.95   240.07   228.08   214.37   201.21   188.91   177.35   167.39   156.89   
 146.32   136.14   127.05   118.35   110.53   102.99   96.05    89.92    84.26    79.00    
 74.06    69.86    66.22    62.71    59.46    56.65    53.94    51.67    49.67    47.75    
 45.97    44.38    42.86    41.44    39.94    38.33    36.41    34.48    32.38    30.13    
 27.95    25.50    22.90    20.06    16.88    13.44    9.90     6.31     3.20     0.00     
 0.00     
630.00   630.53   627.96   623.88   619.19   614.42   611.83   610.04   608.00   606.07   
 603.68   599.20   594.69   589.78   583.19   578.25   572.98   566.73   559.85   548.79   
 536.35   523.71   510.51   498.16   485.86   471.86   458.16   443.35   426.46   412.17   
 400.60   390.69   376.16   362.15   348.97   336.56   323.73   313.65   300.64   287.23   
 275.66   264.67   251.77   240.43   227.95   214.81   202.55   190.98   178.67   167.42   
 156.27   145.99   136.96   128.30   120.00   112.53   105.58   99.39    93.37    88.17    
 83.32    78.84    74.79    71.00    67.69    64.50    61.61    59.04    56.55    54.28    
 51.93    49.74    47.82    45.35    43.15    41.06    38.64    36.48    34.38    31.81    
 29.40    27.04    24.62    21.80    18.60    15.00    11.10    7.09     3.15     0.00     
 0.00     
628.60   629.80   626.77   621.60   617.34   614.52   613.05   611.80   608.94   601.46   
 595.90   592.90   590.16   586.54   581.50   576.11   570.80   568.62   563.28   552.81   
 541.09   532.55   525.27   513.19   499.83   485.23   472.28   459.72   450.06   435.79   
 421.72   407.34   394.36   379.26   364.49   350.08   336.59   323.77   312.70   299.39   
 287.07   275.08   262.84   252.25   240.27   228.70   218.13   206.75   195.05   184.92   
 172.39   161.84   152.34   142.26   132.50   122.24   112.99   104.93   97.82    90.87    
 84.37    78.82    73.84    69.30    65.68    62.63    60.02    57.92    56.03    54.25    
 52.77    51.04    49.35    47.53    45.70    43.77    41.62    39.46    37.03    34.55    
 31.80    29.12    26.49    23.56    20.31    16.64    12.58    8.18     4.08     0.26     
 0.00     
628.11   629.85   626.93   621.42   618.05   617.95   615.90   611.65   606.26   604.01   
 601.67   599.08   594.04   588.13   585.74   582.57   576.06   569.38   565.45   562.61   
 553.08   542.58   535.37   527.28   517.46   505.48   492.26   481.44   469.83   455.71   
 443.11   430.23   416.18   401.49   388.26   376.41   361.20   347.38   335.27   321.56   
 308.72   295.42   280.92   268.90   257.14   244.16   231.91   220.26   208.36   195.75   
 183.48   171.86   160.79   148.90   138.22   128.28   119.00   110.42   102.41   94.77    
 87.81    81.51    75.37    69.95    65.43    60.93    57.49    54.78    52.55    50.72    
 49.06    47.58    46.14    44.64    42.67    40.93    39.50    37.20    35.19    32.98    
 30.64    28.24    25.67    22.71    19.46    15.64    11.73    7.45     3.23     0.00     
 0.00     
628.51   629.81   626.13   620.87   620.26   621.13   616.03   608.50   606.18   604.99   
 600.78   594.61   591.98   591.51   587.50   581.92   581.12   576.89   568.98   560.51   
 554.64   550.76   543.55   534.70   527.32   519.74   506.19   494.44   484.90   471.40   
 457.16   447.94   435.33   419.56   404.43   390.24   375.82   361.01   345.30   330.54   
 317.13   302.82   288.43   274.31   259.90   246.91   233.64   221.71   210.62   198.47   
 186.90   175.77   165.01   154.92   145.68   136.11   126.90   117.94   110.36   103.30   
 96.43    90.25    84.82    79.39    74.45    69.86    65.36    61.21    57.37    53.83    
 50.81    48.10    45.49    43.13    40.64    38.20    35.72    33.38    30.93    28.37    
 25.97    23.31    20.66    18.11    15.55    12.84    10.03    6.96     3.57     0.35     
 0.00     
627.70   629.59   626.92   620.88   619.15   618.87   616.26   611.35   608.07   606.81   
 604.49   598.18   596.10   595.90   592.42   587.01   584.36   581.42   574.15   566.87   
 561.25   554.24   545.79   538.96   535.82   526.63   513.28   505.28   496.15   482.80   
 471.43   461.45   446.89   434.10   421.68   405.18   389.11   373.26   355.67   338.47   
 320.75   304.13   287.96   272.09   258.05   242.88   228.92   217.45   207.35   196.32   
 186.24   177.84   169.72   161.32   153.51   145.91   138.64   131.50   124.75   117.63   
 111.18   104.65   98.42    92.20    86.62    81.19    75.97    71.20    66.65    62.19    
 57.89    53.88    50.01    46.46    43.35    40.45    37.47    34.67    31.84    28.91    
 26.07    23.11    20.14    17.26    14.29    11.46    8.42     5.28     2.30     0.00     
 0.00     
628.06   628.98   624.31   620.08   619.90   617.75   613.24   610.60   608.60   608.16   
 606.84   600.18   596.54   596.59   592.86   587.06   585.86   582.41   574.68   568.60   
 563.62   558.60   552.02   541.34   534.78   527.36   515.27   505.06   496.10   484.70   
 471.88   458.96   446.16   429.24   414.83   399.31   382.98   368.50   352.79   336.36   
 321.21   305.51   291.03   276.31   261.93   248.97   236.43   224.17   212.69   201.22   
 190.22   179.60   169.88   160.45   150.90   141.84   132.84   124.55   117.33   110.53   
 103.78   97.67    91.90    86.05    80.75    75.35    70.18    65.29    60.46    56.07    
 52.13    48.44    45.25    42.13    39.39    36.81    34.32    32.10    29.94    27.80    
 25.48    23.07    20.43    17.86    15.22    12.57    9.67     6.62     3.56     0.25     
 0.00     
626.47   627.97   624.86   620.27   619.45   618.60   616.96   613.90   608.15   606.78   
 606.53   603.78   598.50   592.09   590.70   587.49   581.82   575.76   570.89   568.77   
 562.47   553.27   545.99   537.32   528.20   516.26   505.70   495.24   483.92   468.69   
 455.02   443.65   428.84   413.40   399.85   386.37   371.08   355.81   342.01   326.37   
 312.76   298.91   285.19   271.77   259.25   247.10   235.66   224.30   212.21   199.95   
 188.57   176.36   164.96   153.79   142.61   132.61   123.48   114.94   106.97   99.52    
 92.63    86.28    79.79    73.92    68.27    63.07    58.07    53.70    49.92    46.35    
 43.58    41.07    39.00    37.11    35.79    34.30    32.97    31.40    29.90    28.15    
 26.34    24.16    21.87    19.53    17.07    14.24    11.01    7.77     4.13     0.00     
 0.00     
628.14   628.89   626.08   623.08   620.69   619.40   619.40   619.15   615.00   608.90   
 606.23   605.25   602.66   600.75   592.87   586.74   581.09   578.07   573.05   564.77   
 554.98   544.97   536.77   528.17   516.74   501.62   488.18   475.83   464.16   448.13   
 431.26   415.64   402.24   386.35   369.99   355.86   341.61   327.46   313.02   300.67   
 290.01   277.61   265.26   255.46   244.14   232.91   222.61   211.22   199.82   188.41   
 176.69   165.25   154.60   144.01   133.77   124.16   114.83   105.87   98.26    91.08    
 84.49    78.50    72.93    67.80    63.27    59.20    55.74    52.82    50.34    48.20    
 46.47    44.98    43.62    42.13    40.71    39.12    37.37    35.46    33.45    31.28    
 28.87    26.69    24.18    21.61    18.85    16.02    12.94    9.68     5.52     0.18     
 0.00     
627.74   628.47   627.70   626.70   624.12   620.84   618.64   616.47   615.16   614.13   
 610.76   607.55   601.24   596.84   592.37   586.50   581.41   577.72   572.04   559.75   
 548.44   537.88   526.60   512.47   498.31   485.88   470.72   454.92   438.71   424.07   
 410.77   396.86   383.24   367.38   351.84   338.62   325.97   313.82   300.52   288.01   
 275.57   263.01   252.38   240.25   227.53   215.21   202.99   191.65   179.96   168.16   
 157.37   147.06   137.53   128.90   120.36   112.61   105.25   98.61    92.51    87.23    
 82.54    78.07    74.01    70.52    67.15    64.20    61.38    58.74    56.40    54.46    
 52.02    49.87    47.78    45.35    43.06    40.63    38.24    35.70    33.26    30.69    
 28.20    25.83    23.24    20.66    17.89    14.95    12.04    8.53     4.51     0.00     
 0.00     
626.94   628.95   629.32   628.65   628.57   626.64   624.10   620.00   616.01   612.98   
 609.21   604.64   601.35   596.20   592.58   586.84   580.98   572.41   563.85   553.07   
 539.99   527.32   512.23   495.55   479.26   463.31   448.41   434.32   420.33   406.02   
 392.49   378.87   366.80   353.55   340.84   327.51   312.55   298.51   284.96   271.97   
 259.56   247.68   236.29   224.42   212.01   200.56   189.94   179.42   169.08   159.39   
 150.63   142.09   133.26   124.32   115.84   108.83   102.03   95.93    90.53    85.43    
 80.84    76.76    72.96    69.44    66.05    62.71    59.50    56.39    53.41    50.49    
 47.76    45.12    42.62    40.38    38.27    36.16    34.23    32.22    30.13    28.28    
 26.02    23.74    21.22    18.63    15.94    13.17    10.41    7.46     4.45     0.00     
 0.00     
628.48   629.54   629.82   628.35   627.57   627.31   625.14   623.30   619.38   615.52   
 613.64   612.55   608.54   602.34   595.33   589.45   583.37   575.54   566.07   554.54   
 540.88   525.28   510.06   494.12   477.06   459.95   445.15   429.66   416.11   404.23   
 390.25   376.41   363.19   351.16   338.24   322.84   308.81   295.46   281.84   267.58   
 254.32   241.74   229.36   217.83   206.98   197.01   187.81   179.03   170.44   162.07   
 153.60   145.15   136.78   128.61   120.75   113.42   105.89   98.72    91.84    85.60    
 79.85    74.31    69.28    64.64    60.39    56.43    52.82    49.49    46.50    43.76    
 41.41    39.48    37.70    36.21    34.95    33.75    32.59    31.16    29.74    28.21    
 26.28    24.21    21.92    19.57    16.97    14.20    11.50    8.41     5.12     0.00     
 0.00     
628.56   628.32   628.29   626.60   625.55   625.96   625.88   625.14   622.30   620.33   
 618.05   615.16   610.36   606.32   598.86   593.68   586.22   577.55   569.10   558.96   
 546.03   532.45   519.58   505.09   492.13   473.13   455.51   442.04   428.26   411.56   
 396.02   382.33   369.82   357.99   345.15   332.71   320.33   306.98   292.05   279.02   
 264.75   250.82   238.09   226.13   214.85   203.45   193.08   182.32   171.76   162.12   
 153.33   144.72   136.33   127.96   119.58   111.97   104.84   98.00    91.63    85.66    
 80.20    74.99    70.30    65.88    61.63    57.89    54.46    51.19    48.25    45.53    
 43.06    40.57    38.74    36.54    34.80    33.28    31.35    29.66    27.98    26.30    
 24.46    22.64    20.69    18.68    16.43    14.16    11.64    8.53     5.19     0.00     
 0.00     
630.00   628.00   627.49   626.35   626.15   626.15   626.23   626.48   621.74   617.57   
 614.12   611.53   608.17   607.37   605.80   597.82   588.87   580.43   572.03   562.89   
 554.95   545.29   530.76   514.45   499.30   483.85   469.70   454.60   439.48   426.12   
 411.23   395.87   382.69   369.56   354.79   340.60   325.59   312.02   299.42   288.04   
 276.03   263.67   251.63   240.24   228.52   216.86   205.14   193.92   182.60   171.32   
 160.85   150.79   140.73   131.57   122.56   113.95   106.32   99.27    92.90    87.05    
 81.74    76.91    72.46    68.58    65.04    61.86    59.00    56.60    54.40    52.40    
 50.32    48.33    46.21    44.23    42.19    40.19    38.26    36.17    34.17    32.18    
 30.09    28.00    25.92    23.59    21.07    18.22    15.22    11.53    7.19     0.02     
 0.00     
628.60   626.42   626.58   626.91   626.89   625.96   621.79   616.84   616.76   617.00   
 616.60   613.66   607.92   603.27   599.93   598.45   594.95   588.27   580.22   573.11   
 566.92   559.70   547.69   533.62   522.71   511.21   497.27   481.40   465.03   451.09   
 437.75   422.33   406.14   391.30   377.39   362.41   347.31   333.84   320.74   306.75   
 293.43   282.54   271.31   259.80   249.28   238.67   226.90   216.43   205.63   194.60   
 183.18   171.86   160.58   149.37   138.51   128.10   118.68   109.64   101.13   92.94    
 85.62    78.72    72.45    66.86    61.93    57.66    54.07    51.02    48.49    46.40    
 44.67    43.16    41.58    40.18    38.67    37.16    35.66    34.10    32.26    30.53    
 28.95    26.94    25.19    23.79    21.11    18.53    14.86    10.78    6.13     0.00     
 0.00     
628.11   625.77   626.09   626.09   623.03   619.91   619.14   621.07   622.10   616.86   
 612.74   611.70   612.72   610.30   602.79   596.60   594.06   591.10   583.88   574.84   
 568.42   563.62   555.78   546.63   537.34   528.35   514.56   501.24   489.54   477.48   
 461.51   446.84   434.29   418.46   402.50   387.36   373.12   356.80   342.32   327.45   
 312.76   302.73   288.78   275.26   264.07   252.89   241.80   229.81   219.02   207.51   
 196.34   184.08   171.95   160.47   149.09   138.60   128.32   118.34   108.78   99.41    
 91.40    83.67    76.60    69.97    64.08    58.76    54.11    50.07    46.53    43.65    
 41.08    38.96    37.07    35.40    33.84    32.34    30.85    29.27    27.94    26.38    
 24.89    23.39    21.91    20.25    18.42    16.09    13.18    9.63     5.47     0.58     
 0.00     
628.51   625.03   625.10   624.43   621.47   616.86   616.98   618.75   618.41   613.76   
 611.49   611.66   609.12   602.04   600.26   600.40   594.98   586.10   580.80   578.10   
 570.31   562.76   558.14   553.57   544.38   535.49   528.81   519.60   506.41   496.52   
 485.27   469.11   454.85   441.73   424.77   409.41   393.67   375.77   361.18   346.86   
 330.73   317.66   302.83   287.82   272.41   258.99   245.90   233.95   223.02   210.57   
 199.24   188.70   178.21   168.10   157.88   148.85   139.91   131.01   122.76   114.74   
 107.36   100.29   93.42    86.78    80.57    74.53    68.75    63.24    58.11    53.38    
 49.06    45.21    41.86    38.59    35.66    33.17    30.86    29.02    26.71    24.73    
 22.59    20.36    18.22    15.99    13.61    11.21    8.73     5.91     2.86     0.00     
 0.00     
627.70   625.21   625.60   626.18   621.09   616.74   617.64   619.12   615.59   611.97   
 612.53   613.35   607.63   599.78   597.23   595.01   590.25   583.45   581.12   575.33   
 567.04   561.09   557.04   549.14   540.83   535.89   527.46   516.40   508.72   499.19   
 483.60   472.54   461.21   444.97   432.59   419.58   402.54   386.30   368.59   351.69   
 336.17   317.64   300.28   283.47   267.90   252.84   239.20   225.98   214.18   202.75   
 193.08   183.15   174.01   164.55   156.21   148.92   141.32   133.45   126.15   119.39   
 112.72   106.38   100.25   94.22    88.61    83.31    78.40    73.74    69.30    64.96    
 60.59    56.46    52.53    48.86    45.31    42.02    38.70    35.39    32.26    28.97    
 25.99    22.84    19.85    16.95    14.14    11.42    8.61     5.64     2.74     0.09     
 0.00     
